Folder: LabsEletroquimica/Laboratorio 2/Dados Experimentais/Verificar Equacao de Randles Sevcik

Note: README.md
# LabsEletroqu칤mica

Este reposit칩rio cont칠m c칩digos utilizados para an치lise de dados na disciplina **Eletroqu칤mica e Eletroanal칤tica (CTQ-012)**, ministrada pelo **Prof. Mauro Coelho dos Santos**. Aqui s칚o documentados os experimentos realizados ao longo do curso.  

## 游늭 Experimentos  

- **[Medi칞칚o da 츼rea Eletroativa de Eletrodos de Pt, Pd e Au](https://github.com/PassosSouza/LabsEletroquimica/tree/main/Laboratorio%201)**  
  Neste experimento, foi realizada uma **voltametria c칤clica** em um eletrodo de **Pt/C**, analisando sua 치rea eletroativa.  

... *(Novos experimentos ser칚o adicionados em breve!)*

File: CV_20 mV_Ferri_ferro.txt
Potential applied (V);Time (s);WE(1).Current (A);WE(1).Potential (V);Scan;Index;Q+;Q-
-0.196838;86.5676;-4.39087e-05;-0.196686;2;1501;;
-0.188293;86.9949;-3.89008e-05;-0.188202;2;1509;;
-0.179749;87.4221;-3.5968e-05;-0.179626;2;1517;;
-0.171204;87.8493;-3.38348e-05;-0.171051;2;1525;;
-0.162659;88.2766;-3.21014e-05;-0.162506;2;1533;;
-0.154114;88.7038;-3.0658e-05;-0.153992;2;1541;;
-0.145569;89.1311;-2.94281e-05;-0.145477;2;1549;;
-0.137024;89.5583;-2.83264e-05;-0.136902;2;1557;;
-0.128479;89.9856;-2.73468e-05;-0.128357;2;1565;;
-0.119934;90.4128;-2.64496e-05;-0.119843;2;1573;;
-0.111389;90.8401;-2.56073e-05;-0.111267;2;1581;;
-0.102844;91.2673;-2.48383e-05;-0.102844;2;1589;;
-0.0942993;91.6946;-2.40509e-05;-0.0942078;2;1597;;
-0.0857544;92.1218;-2.33887e-05;-0.0857239;2;1605;;
-0.0772095;92.5491;-2.26501e-05;-0.0771484;2;1613;;
-0.0686646;92.9763;-2.20215e-05;-0.068573;2;1621;;
-0.0601196;93.4036;-2.14111e-05;-0.0600586;2;1629;;
-0.0515747;93.8308;-2.08221e-05;-0.0515442;2;1637;;
-0.0430298;94.2581;-2.02423e-05;-0.0429932;2;1645;;
-0.0344849;94.6853;-1.96472e-05;-0.0344574;2;1653;;
-0.0259399;95.1126;-1.90765e-05;-0.0259155;2;1661;;
-0.017395;95.5398;-1.84021e-05;-0.0173615;2;1669;;
-0.0088501;95.9671;-1.80267e-05;-0.00883179;2;1677;;
-0.000305176;96.3943;-1.75354e-05;-0.000299072;2;1685;;
0.00823975;96.8216;-1.69891e-05;0.00827332;2;1693;;
0.0167847;97.2488;-1.65253e-05;0.016803;2;1701;;
0.0253296;97.6761;-1.60889e-05;0.0253723;2;1709;;
0.0338745;98.1033;-1.57104e-05;0.0339325;2;1717;;
0.0424194;98.5305;-1.52344e-05;0.0424744;2;1725;;
0.0509644;98.9578;-1.47552e-05;0.0509338;2;1733;;
0.0595093;99.385;-1.42517e-05;0.0595703;2;1741;;
0.0680542;99.8123;-1.36139e-05;0.0680847;2;1749;;
0.0765991;100.24;-1.29028e-05;0.0766602;2;1757;;
0.085144;100.667;-1.21948e-05;0.0851746;2;1765;;
0.093689;101.094;-1.07422e-05;0.09375;2;1773;;
0.102234;101.521;-9.42688e-06;0.102203;2;1781;;
0.110779;101.949;-7.61414e-06;0.110809;2;1789;;
0.119324;102.376;-5.40161e-06;0.119354;2;1797;;
0.127869;102.803;-2.6416e-06;0.127869;2;1805;;
0.136414;103.23;7.48291e-07;0.136383;2;1813;;
0.144958;103.658;4.88281e-06;0.144928;2;1821;;
0.153503;104.085;9.86633e-06;0.153381;2;1829;;
0.162048;104.512;1.51764e-05;0.161835;2;1837;;
0.170593;104.939;2.00378e-05;0.17038;2;1845;;
0.179138;105.367;2.40784e-05;0.178894;2;1853;;
0.187683;105.794;2.72339e-05;0.187378;2;1861;;
0.196228;106.221;2.97058e-05;0.195801;2;1869;;
0.204773;106.648;3.14697e-05;0.204803;2;1877;;
0.213318;107.076;3.23853e-05;0.213379;2;1885;;
0.221863;107.503;3.27545e-05;0.221863;2;1893;;
0.230408;107.93;3.2547e-05;0.230408;2;1901;;
0.238953;108.357;3.20648e-05;0.238983;2;1909;;
0.247498;108.785;3.1366e-05;0.247498;2;1917;;
0.256042;109.212;3.0481e-05;0.256012;2;1925;;
0.264587;109.639;2.95654e-05;0.264587;2;1933;;
0.273132;110.066;2.86682e-05;0.273193;2;1941;;
0.281677;110.493;2.78076e-05;0.281708;2;1949;;
0.290222;110.921;2.69775e-05;0.290253;2;1957;;
0.298767;111.348;2.62299e-05;0.298828;2;1965;;
0.307312;111.775;2.55676e-05;0.307343;2;1973;;
0.315857;112.202;2.50153e-05;0.315887;2;1981;;
0.324402;112.63;2.44629e-05;0.324524;2;1989;;
0.332947;113.057;2.3999e-05;0.333069;2;1997;;
0.341492;113.484;2.35657e-05;0.341614;2;2005;;
0.350037;113.911;2.31964e-05;0.350098;2;2013;;
0.358582;114.339;2.29034e-05;0.358643;2;2021;;
0.367126;114.766;2.26135e-05;0.367218;2;2029;;
0.375671;115.193;2.23999e-05;0.375793;2;2037;;
0.384216;115.62;2.21924e-05;0.384277;2;2045;;
0.392761;116.048;2.20367e-05;0.392822;2;2053;;
0.401306;116.475;2.19391e-05;0.401398;2;2061;;
0.409851;116.902;2.18597e-05;0.409943;2;2069;;
0.418396;117.329;2.17834e-05;0.418488;2;2077;;
0.426941;117.757;2.17651e-05;0.427002;2;2085;;
0.435486;118.184;2.16675e-05;0.435577;2;2093;;
0.444031;118.611;2.17346e-05;0.444061;2;2101;;
0.452576;119.038;2.17651e-05;0.452667;2;2109;;
0.461121;119.466;2.17865e-05;0.461212;2;2117;;
0.469666;119.893;2.19055e-05;0.469757;2;2125;;
0.47821;120.32;2.20673e-05;0.478363;2;2133;;
0.486755;120.747;2.21283e-05;0.486877;2;2141;;
0.4953;121.175;2.2287e-05;0.495453;2;2149;;
0.503845;121.602;2.2467e-05;0.503937;2;2157;;
0.51239;122.029;2.2699e-05;0.512512;2;2165;;
0.520935;122.456;2.2818e-05;0.521057;2;2173;;
0.52948;122.884;2.31384e-05;0.529541;2;2181;;
0.538025;123.311;2.33978e-05;0.538147;2;2189;;
0.54657;123.738;2.37457e-05;0.546661;2;2197;;
0.555115;124.165;2.40997e-05;0.555206;2;2205;;
0.56366;124.593;2.44049e-05;0.563812;2;2213;;
0.572205;125.02;2.5061e-05;0.572327;2;2221;;
0.58075;125.447;2.54761e-05;0.580841;2;2229;;
0.589294;125.874;2.61353e-05;0.589355;2;2237;;
0.597839;126.302;2.67181e-05;0.5979;2;2245;;
0.593567;126.729;2.27325e-05;0.593689;2;2253;;
0.585022;127.156;2.02881e-05;0.585083;2;2261;;
0.576477;127.583;1.87317e-05;0.576599;2;2269;;
0.567932;128.011;1.75476e-05;0.568054;2;2277;;
0.559387;128.438;1.66382e-05;0.55954;2;2285;;
0.550842;128.865;1.58722e-05;0.550934;2;2293;;
0.542297;129.292;1.52283e-05;0.542419;2;2301;;
0.533752;129.72;1.46576e-05;0.533813;2;2309;;
0.525208;130.147;1.41296e-05;0.52533;2;2317;;
0.516663;130.574;1.35925e-05;0.516785;2;2325;;
0.508118;131.001;1.31317e-05;0.508179;2;2333;;
0.499573;131.429;1.26953e-05;0.499664;2;2341;;
0.491028;131.856;1.22559e-05;0.49115;2;2349;;
0.482483;132.283;1.18591e-05;0.482635;2;2357;;
0.473938;132.71;1.1441e-05;0.47406;2;2365;;
0.465393;133.138;1.11267e-05;0.465515;2;2373;;
0.456848;133.565;1.073e-05;0.456909;2;2381;;
0.448303;133.992;1.03119e-05;0.448425;2;2389;;
0.439758;134.419;9.93347e-06;0.43985;2;2397;;
0.431213;134.847;9.52454e-06;0.431244;2;2405;;
0.422668;135.274;9.15222e-06;0.422729;2;2413;;
0.414124;135.701;8.80432e-06;0.414093;2;2421;;
0.405579;136.128;8.4198e-06;0.405609;2;2429;;
0.397034;136.556;8.06885e-06;0.397064;2;2437;;
0.388489;136.983;7.79419e-06;0.388489;2;2445;;
0.379944;137.41;7.41577e-06;0.379913;2;2453;;
0.371399;137.837;6.99463e-06;0.371429;2;2461;;
0.362854;138.265;6.5979e-06;0.362885;2;2469;;
0.354309;138.692;6.18591e-06;0.35434;2;2477;;
0.345764;139.119;5.80139e-06;0.345764;2;2485;;
0.337219;139.546;5.3772e-06;0.337219;2;2493;;
0.328674;139.974;4.87671e-06;0.328674;2;2501;;
0.320129;140.401;4.40643e-06;0.32019;2;2509;;
0.311584;140.828;3.83453e-06;0.311615;2;2517;;
0.30304;141.255;3.25104e-06;0.30304;2;2525;;
0.294495;141.683;2.68005e-06;0.294556;2;2533;;
0.28595;142.11;1.97601e-06;0.28598;2;2541;;
0.277405;142.537;1.11877e-06;0.277496;2;2549;;
0.26886;142.964;9.49707e-08;0.268951;2;2557;;
0.260315;143.392;-1.08093e-06;0.260468;2;2565;;
0.25177;143.819;-2.50488e-06;0.252075;2;2573;;
0.243225;144.246;-4.25385e-06;0.243317;2;2581;;
0.23468;144.673;-6.30798e-06;0.234802;2;2589;;
0.226135;145.101;-8.8501e-06;0.226257;2;2597;;
0.21759;145.528;-1.18103e-05;0.217773;2;2605;;
0.209045;145.955;-1.52588e-05;0.209198;2;2613;;
0.2005;146.382;-1.9162e-05;0.200714;2;2621;;
0.191956;146.81;-2.35535e-05;0.1922;2;2629;;
0.183411;147.237;-2.78442e-05;0.183716;2;2637;;
0.174866;147.664;-3.23364e-05;0.174957;2;2645;;
0.166321;148.091;-3.66364e-05;0.166382;2;2653;;
0.157776;148.519;-4.0567e-05;0.157806;2;2661;;
0.149231;148.946;-4.38507e-05;0.149353;2;2669;;
0.140686;149.373;-4.69818e-05;0.140778;2;2677;;
0.132141;149.8;-4.8996e-05;0.132202;2;2685;;
0.123596;150.228;-5.01404e-05;0.123627;2;2693;;
0.115051;150.655;-5.078125E-05;0.115082;2;2701;;
0.106506;151.082;-5.07507e-05;0.106567;2;2709;;
0.0979614;151.509;-5.0293e-05;0.0979919;2;2717;;
0.0894165;151.937;-4.96521e-05;0.089386;2;2725;;
0.0808716;152.364;-4.90387e-05;0.0809326;2;2733;;
0.0723267;152.791;-4.83612e-05;0.0723267;2;2741;;
0.0637817;153.218;-4.7757e-05;0.0638123;2;2749;;
0.0552368;153.646;-4.72717e-05;0.0552673;2;2757;;
0.0466919;154.073;-4.68567e-05;0.0467499;2;2765;;
0.038147;154.5;-4.6521e-05;0.0382019;2;2773;;
0.0296021;154.927;-4.61884e-05;0.02966;2;2781;;
0.0210571;155.355;-4.59747e-05;0.021106;2;2789;;
0.0125122;155.782;-4.57916e-05;0.012561;2;2797;;
0.00396729;156.209;-4.55963e-05;0.00397949;2;2805;;
-0.00457764;156.636;-4.55078e-05;-0.00456238;2;2813;;
-0.0131226;157.064;-4.53979e-05;-0.013092;2;2821;;
-0.0216675;157.491;-4.52545e-05;-0.0216553;2;2829;;
-0.0302124;157.918;-4.53003e-05;-0.0301819;2;2837;;
-0.0387573;158.345;-4.50592e-05;-0.0387299;2;2845;;
-0.0473022;158.773;-4.49768e-05;-0.0472595;2;2853;;
-0.0558472;159.2;-4.50043e-05;-0.0558167;2;2861;;
-0.0643921;159.627;-4.49432e-05;-0.06427;2;2869;;
-0.072937;160.054;-4.49493e-05;-0.072876;2;2877;;
-0.0814819;160.482;-4.49738e-05;-0.0813599;2;2885;;
-0.0900269;160.909;-4.49615e-05;-0.0899353;2;2893;;
-0.0985718;161.336;-4.50714e-05;-0.0985107;2;2901;;
-0.107117;161.763;-4.51508e-05;-0.106995;2;2909;;
-0.115662;162.191;-4.52393e-05;-0.115601;2;2917;;
-0.124207;162.618;-4.54559e-05;-0.124084;2;2925;;
-0.132751;163.045;-4.57153e-05;-0.13266;2;2933;;
-0.141296;163.472;-4.60571e-05;-0.141174;2;2941;;
-0.149841;163.899;-4.64447e-05;-0.149689;2;2949;;
-0.158386;164.327;-4.69543e-05;-0.158234;2;2957;;
-0.166931;164.754;-4.75922e-05;-0.166779;2;2965;;
-0.175476;165.181;-4.83521e-05;-0.175354;2;2973;;
-0.184021;165.608;-4.91211e-05;-0.183868;2;2981;;
-0.192566;166.036;-5.00183e-05;-0.192413;2;2989;;
-0.198975;166.463;-4.6225e-05;-0.198853;2;2997;;
-0.197906;166.516;-4.44611e-05;-0.197754;2;2998;;