Folder: LabsEletroquimica/Laboratorio 2/Verificar Equacao de Randles Sevcik (part 2)

File: CV_500 mV_Ferri_ferro.txt
Potential applied (V);Time (s);WE(1).Current (A);WE(1).Potential (V);Scan;Index;Q+;Q-
-0.196838;9.6483;-0.000451477;-0.196594;2;1501;;
-0.188293;9.66539;-0.00042337;-0.18811;2;1509;;
-0.179749;9.68248;-0.000402649;-0.179504;2;1517;;
-0.171204;9.69956;-0.000384827;-0.171021;2;1525;;
-0.162659;9.71665;-0.000369171;-0.162598;2;1533;;
-0.154114;9.73374;-0.000355164;-0.154022;2;1541;;
-0.145569;9.75083;-0.000341919;-0.145416;2;1549;;
-0.137024;9.76792;-0.00032962;-0.136932;2;1557;;
-0.128479;9.785;-0.000317902;-0.128387;2;1565;;
-0.119934;9.80209;-0.000306824;-0.119812;2;1573;;
-0.111389;9.81918;-0.000296204;-0.111267;2;1581;;
-0.102844;9.83627;-0.000286194;-0.102783;2;1589;;
-0.0942993;9.85336;-0.000276611;-0.0942383;2;1597;;
-0.0857544;9.87044;-0.000267212;-0.0856934;2;1605;;
-0.0772095;9.88753;-0.000258087;-0.0771484;2;1613;;
-0.0686646;9.90462;-0.000249298;-0.0686035;2;1621;;
-0.0601196;9.92171;-0.000240875;-0.0600586;2;1629;;
-0.0515747;9.9388;-0.0002323;-0.0515442;2;1637;;
-0.0430298;9.95588;-0.000224335;-0.0429932;2;1645;;
-0.0344849;9.97297;-0.000216339;-0.0344513;2;1653;;
-0.0259399;9.99006;-0.000208588;-0.0259003;2;1661;;
-0.017395;10.0071;-0.000201172;-0.0173676;2;1669;;
-0.0088501;10.0242;-0.000193695;-0.00882874;2;1677;;
-0.000305176;10.0413;-0.000186462;-0.000289917;2;1685;;
0.00823975;10.0584;-0.00017923;0.00826111;2;1693;;
0.0167847;10.0755;-0.000172119;0.0168365;2;1701;;
0.0253296;10.0926;-0.000165344;0.0253754;2;1709;;
0.0338745;10.1097;-0.000158569;0.0339172;2;1717;;
0.0424194;10.1268;-0.000151978;0.0424866;2;1725;;
0.0509644;10.1439;-0.000145386;0.0509949;2;1733;;
0.0595093;10.1609;-0.000138702;0.0595398;2;1741;;
0.0680542;10.178;-0.000132019;0.0681152;2;1749;;
0.0765991;10.1951;-0.000125305;0.0766296;2;1757;;
0.085144;10.2122;-0.000118622;0.0851746;2;1765;;
0.093689;10.2293;-0.000111694;0.09375;2;1773;;
0.102234;10.2464;-0.000104736;0.102264;2;1781;;
0.110779;10.2635;-9.73206e-05;0.110809;2;1789;;
0.119324;10.2806;-8.95386e-05;0.119415;2;1797;;
0.127869;10.2976;-8.15735e-05;0.12793;2;1805;;
0.136414;10.3147;-7.30591e-05;0.136475;2;1813;;
0.144958;10.3318;-6.43311e-05;0.14505;2;1821;;
0.153503;10.3489;-5.47791e-05;0.153534;2;1829;;
0.162048;10.366;-4.47601e-05;0.16217;2;1837;;
0.170593;10.3831;-3.41431e-05;0.170685;2;1845;;
0.179138;10.4002;-2.34283e-05;0.179199;2;1853;;
0.187683;10.4173;-1.20911e-05;0.187744;2;1861;;
0.196228;10.4343;-6.640625E-07;0.19635;2;1869;;
0.204773;10.4514;1.10352e-05;0.204742;2;1877;;
0.213318;10.4685;2.30652e-05;0.213043;2;1885;;
0.221863;10.4856;3.51837e-05;0.221863;2;1893;;
0.230408;10.5027;4.70856e-05;0.230438;2;1901;;
0.238953;10.5198;5.92651e-05;0.238922;2;1909;;
0.247498;10.5369;7.15942e-05;0.247437;2;1917;;
0.256042;10.554;8.35876e-05;0.255951;2;1925;;
0.264587;10.5711;9.59473e-05;0.264526;2;1933;;
0.273132;10.5881;0.000108337;0.273041;2;1941;;
0.281677;10.6052;0.000120667;0.281647;2;1949;;
0.290222;10.6223;0.000133331;0.29007;2;1957;;
0.298767;10.6394;0.000145752;0.298615;2;1965;;
0.307312;10.6565;0.000158356;0.30719;2;1973;;
0.315857;10.6736;0.000170868;0.315735;2;1981;;
0.324402;10.6907;0.000183533;0.32428;2;1989;;
0.332947;10.7078;0.000196045;0.332794;2;1997;;
0.341492;10.7248;0.000208405;0.341339;2;2005;;
0.350037;10.7419;0.000220764;0.349792;2;2013;;
0.358582;10.759;0.000233063;0.358368;2;2021;;
0.367126;10.7761;0.000244781;0.366913;2;2029;;
0.375671;10.7932;0.000256287;0.375427;2;2037;;
0.384216;10.8103;0.000267639;0.383972;2;2045;;
0.392761;10.8274;0.000278412;0.392517;2;2053;;
0.401306;10.8445;0.000289124;0.40094;2;2061;;
0.409851;10.8615;0.000299225;0.409546;2;2069;;
0.418396;10.8786;0.000308899;0.418579;2;2077;;
0.426941;10.8957;0.000317841;0.427063;2;2085;;
0.435486;10.9128;0.000326355;0.435577;2;2093;;
0.444031;10.9299;0.000334137;0.444183;2;2101;;
0.452576;10.947;0.000341064;0.452698;2;2109;;
0.461121;10.9641;0.000347534;0.461304;2;2117;;
0.469666;10.9812;0.000353394;0.469818;2;2125;;
0.47821;10.9983;0.000358521;0.478333;2;2133;;
0.486755;11.0153;0.000363129;0.486938;2;2141;;
0.4953;11.0324;0.000366852;0.495483;2;2149;;
0.503845;11.0495;0.000370026;0.503998;2;2157;;
0.51239;11.0666;0.000372742;0.512512;2;2165;;
0.520935;11.0837;0.000374664;0.521057;2;2173;;
0.52948;11.1008;0.000375977;0.529663;2;2181;;
0.538025;11.1179;0.000377045;0.538147;2;2189;;
0.54657;11.135;0.000377594;0.546722;2;2197;;
0.555115;11.152;0.000377411;0.555267;2;2205;;
0.56366;11.1691;0.000376892;0.563873;2;2213;;
0.572205;11.1862;0.00037616;0.572357;2;2221;;
0.58075;11.2033;0.000374908;0.580933;2;2229;;
0.589294;11.2204;0.000373505;0.589508;2;2237;;
0.597839;11.2375;0.000371918;0.597992;2;2245;;
0.593567;11.2546;0.000344208;0.59375;2;2253;;
0.585022;11.2717;0.00032077;0.585205;2;2261;;
0.576477;11.2887;0.000301666;0.576691;2;2269;;
0.567932;11.3058;0.000285156;0.568085;2;2277;;
0.559387;11.3229;0.000270416;0.559601;2;2285;;
0.550842;11.34;0.000256805;0.551056;2;2293;;
0.542297;11.3571;0.000243988;0.542419;2;2301;;
0.533752;11.3742;0.000232178;0.533905;2;2309;;
0.525208;11.3913;0.000220856;0.525421;2;2317;;
0.516663;11.4084;0.000210266;0.516846;2;2325;;
0.508118;11.4255;0.000200073;0.50824;2;2333;;
0.499573;11.4425;0.000190186;0.499756;2;2341;;
0.491028;11.4596;0.000180603;0.491211;2;2349;;
0.482483;11.4767;0.000171356;0.482666;2;2357;;
0.473938;11.4938;0.000162445;0.47406;2;2365;;
0.465393;11.5109;0.000153809;0.465607;2;2373;;
0.456848;11.528;0.000145325;0.45697;2;2381;;
0.448303;11.5451;0.000136871;0.448425;2;2389;;
0.439758;11.5622;0.000128723;0.439911;2;2397;;
0.431213;11.5792;0.000120667;0.431396;2;2405;;
0.422668;11.5963;0.000112915;0.422821;2;2413;;
0.414124;11.6134;0.000105347;0.414276;2;2421;;
0.405579;11.6305;9.765625E-05;0.405701;2;2429;;
0.397034;11.6476;9.021e-05;0.397003;2;2437;;
0.388489;11.6647;8.27637e-05;0.388458;2;2445;;
0.379944;11.6818;7.57141e-05;0.380005;2;2453;;
0.371399;11.6989;6.85425e-05;0.371399;2;2461;;
0.362854;11.7159;6.17981e-05;0.362854;2;2469;;
0.354309;11.733;5.50537e-05;0.35434;2;2477;;
0.345764;11.7501;4.81171e-05;0.345856;2;2485;;
0.337219;11.7672;4.14948e-05;0.33728;2;2493;;
0.328674;11.7843;3.48633e-05;0.328766;2;2501;;
0.320129;11.8014;2.8418e-05;0.320251;2;2509;;
0.311584;11.8185;2.17133e-05;0.311615;2;2517;;
0.30304;11.8356;1.52679e-05;0.303131;2;2525;;
0.294495;11.8527;8.5144e-06;0.294556;2;2533;;
0.28595;11.8697;1.82617e-06;0.286102;2;2541;;
0.277405;11.8868;-4.7699e-06;0.277557;2;2549;;
0.26886;11.9039;-1.19629e-05;0.269012;2;2557;;
0.260315;11.921;-1.89392e-05;0.260498;2;2565;;
0.25177;11.9381;-2.62421e-05;0.252075;2;2573;;
0.243225;11.9552;-3.42834e-05;0.243347;2;2581;;
0.23468;11.9723;-4.25964e-05;0.234772;2;2589;;
0.226135;11.9894;-5.14221e-05;0.226227;2;2597;;
0.21759;12.0064;-6.07605e-05;0.217682;2;2605;;
0.209045;12.0235;-7.11365e-05;0.209137;2;2613;;
0.2005;12.0406;-8.19702e-05;0.200592;2;2621;;
0.191956;12.0577;-9.32617e-05;0.192108;2;2629;;
0.183411;12.0748;-0.000105255;0.183563;2;2637;;
0.174866;12.0919;-0.000117493;0.175018;2;2645;;
0.166321;12.109;-0.000130432;0.166412;2;2653;;
0.157776;12.1261;-0.000143646;0.157928;2;2661;;
0.149231;12.1431;-0.000156891;0.149353;2;2669;;
0.140686;12.1602;-0.000170624;0.140808;2;2677;;
0.132141;12.1773;-0.000184174;0.132324;2;2685;;
0.123596;12.1944;-0.000197266;0.123749;2;2693;;
0.115051;12.2115;-0.000210236;0.115234;2;2701;;
0.106506;12.2286;-0.000223053;0.10672;2;2709;;
0.0979614;12.2457;-0.000235687;0.0981445;2;2717;;
0.0894165;12.2628;-0.000248383;0.0897217;2;2725;;
0.0808716;12.2799;-0.000260742;0.0810852;2;2733;;
0.0723267;12.2969;-0.000273254;0.0725708;2;2741;;
0.0637817;12.314;-0.000285034;0.0640869;2;2749;;
0.0552368;12.3311;-0.000297089;0.055542;2;2757;;
0.0466919;12.3482;-0.000308929;0.0467499;2;2765;;
0.038147;12.3653;-0.000320404;0.0381897;2;2773;;
0.0296021;12.3824;-0.000331451;0.0296448;2;2781;;
0.0210571;12.3995;-0.000342224;0.02109375;2;2789;;
0.0125122;12.4166;-0.000352814;0.0125397;2;2797;;
0.00396729;12.4336;-0.000363647;0.0039856;2;2805;;
-0.00457764;12.4507;-0.000373566;-0.00456238;2;2813;;
-0.0131226;12.4678;-0.000383423;-0.0130951;2;2821;;
-0.0216675;12.4849;-0.000393188;-0.0216522;2;2829;;
-0.0302124;12.502;-0.000402405;-0.0301666;2;2837;;
-0.0387573;12.5191;-0.00041098;-0.038739;2;2845;;
-0.0473022;12.5362;-0.000419678;-0.0472687;2;2853;;
-0.0558472;12.5533;-0.000427582;-0.0557861;2;2861;;
-0.0643921;12.5703;-0.000435364;-0.0643005;2;2869;;
-0.072937;12.5874;-0.000442688;-0.072876;2;2877;;
-0.0814819;12.6045;-0.000449493;-0.0814514;2;2885;;
-0.0900269;12.6216;-0.00045575;-0.0899963;2;2893;;
-0.0985718;12.6387;-0.000461945;-0.0985107;2;2901;;
-0.107117;12.6558;-0.000467346;-0.107025;2;2909;;
-0.115662;12.6729;-0.000472198;-0.115509;2;2917;;
-0.124207;12.69;-0.00047702;-0.124084;2;2925;;
-0.132751;12.7071;-0.000481354;-0.13266;2;2933;;
-0.141296;12.7241;-0.000485229;-0.141174;2;2941;;
-0.149841;12.7412;-0.00048819;-0.149719;2;2949;;
-0.158386;12.7583;-0.000491272;-0.158264;2;2957;;
-0.166931;12.7754;-0.000493622;-0.166779;2;2965;;
-0.175476;12.7925;-0.000495819;-0.175354;2;2973;;
-0.184021;12.8096;-0.000498199;-0.183868;2;2981;;
-0.192566;12.8267;-0.000499573;-0.192444;2;2989;;
-0.198975;12.8438;-0.000491547;-0.198792;2;2997;;
-0.197906;12.8459;-0.000484985;-0.197723;2;2998;;